staircase.thisTrialN,staircase.stepSize,staircase.intensity,thisRow.t,notes,trial.started,Fixation.started,Fixation.stopped,grating.started,key_resp.started,grating.stopped,trial.stopped,CorrAns,tilt,key_resp.corr,staircase.response,key_resp.rt,participant,session,date,expName,psychopyVersion,frameRate,expStart,
0,2,10.0,0.008128899999974237,,0.0026121999999304535,0.008128899999974237,0.5354495999999926,0.5354495999999926,0.5354495999999926,0.8413273999999547,0.9932630000002973,right,10.0,1,1,0.39795609999964654,Tanishka,001,2024-09-11_12h04.57.596,untitled,2024.1.5,None,2024-09-11 12h05.12.858963 +0530,
1,2,8.0,0.996470699999918,,0.9933298000000832,0.996470699999918,1.5078609000001961,1.5078609000001961,1.5078609000001961,1.8080026000002363,2.0589966000002278,left,-8.0,1,1,0.5420675000000301,Tanishka,001,2024-09-11_12h04.57.596,untitled,2024.1.5,None,2024-09-11 12h05.12.858963 +0530,
2,2,6.0,2.0744253000002573,,2.059079600000132,2.0744253000002573,2.574662200000148,2.574662200000148,2.574662200000148,2.8744595000002846,2.975529700000152,left,-6.0,1,1,0.39773749999994834,Tanishka,001,2024-09-11_12h04.57.596,untitled,2024.1.5,None,2024-09-11 12h05.12.858963 +0530,
3,2,4.0,2.9910680000002685,,2.9755890999999792,2.9910680000002685,3.4909655000001294,3.4909655000001294,3.4909655000001294,3.7911441000001105,3.8919942000002266,left,-4.0,1,1,0.38809249999985695,Tanishka,001,2024-09-11_12h04.57.596,untitled,2024.1.5,None,2024-09-11 12h05.12.858963 +0530,
4,2,2.0,3.907578100000137,,3.892052700000022,3.907578100000137,4.407678200000191,4.390942500000165,4.390942500000165,4.690838700000313,4.7423163000003115,left,-2.0,1,1,0.3500739999999496,Tanishka,001,2024-09-11_12h04.57.596,untitled,2024.1.5,None,2024-09-11 12h05.12.858963 +0530,
5,1,1.0,4.75748270000031,,4.742407100000037,4.75748270000031,5.257571399999961,5.257571399999961,5.257571399999961,5.55746390000013,6.00826810000035,left,-1.0,0,0,0.7422000999999909,Tanishka,001,2024-09-11_12h04.57.596,untitled,2024.1.5,None,2024-09-11 12h05.12.858963 +0530,
6,1,2.0,6.02408400000013,,6.008326699999998,6.02408400000013,6.5237403999999515,6.5237403999999515,6.5237403999999515,6.824235699999917,7.20802410000033,left,-2.0,1,1,0.6741165999997065,Tanishka,001,2024-09-11_12h04.57.596,untitled,2024.1.5,None,2024-09-11 12h05.12.858963 +0530,
7,1,2.0,7.223949800000355,,7.208080000000336,7.223949800000355,7.723894300000211,7.707125800000085,7.707125800000085,8.007316500000343,8.157973800000036,left,-2.0,1,1,0.44668240000009973,Tanishka,001,2024-09-11_12h04.57.596,untitled,2024.1.5,None,2024-09-11 12h05.12.858963 +0530,
8,1,2.0,8.173834400000032,,8.158036400000128,8.173834400000032,8.673534700000346,8.657163700000183,8.657163700000183,8.95714050000015,9.09163800000033,right,2.0,1,1,0.41852279999966413,Tanishka,001,2024-09-11_12h04.57.596,untitled,2024.1.5,None,2024-09-11 12h05.12.858963 +0530,
9,0.5,1.0,9.107071299999916,,9.091702800000348,9.107071299999916,9.607089999999971,9.607089999999971,9.607089999999971,9.906954900000073,10.074444200000016,right,1.0,0,0,0.4511305999999422,Tanishka,001,2024-09-11_12h04.57.596,untitled,2024.1.5,None,2024-09-11 12h05.12.858963 +0530,
10,0.5,1.5,10.090264800000114,,10.074504100000013,10.090264800000114,10.590285900000254,10.590285900000254,10.590285900000254,10.889858400000321,11.107583700000305,right,1.5,1,1,0.5104410999997526,Tanishka,001,2024-09-11_12h04.57.596,untitled,2024.1.5,None,2024-09-11 12h05.12.858963 +0530,
11,0.5,1.5,11.123539100000016,,11.107639800000015,11.123539100000016,11.623316200000318,11.606840899999952,11.606840899999952,11.906699099999969,12.190735000000132,left,-1.5,1,1,0.5713990999997804,Tanishka,001,2024-09-11_12h04.57.596,untitled,2024.1.5,None,2024-09-11 12h05.12.858963 +0530,
12,0.5,1.5,12.206568699999934,,12.190790900000138,12.206568699999934,12.70750790000011,12.690113300000121,12.690113300000121,12.989599400000316,13.190737500000068,right,1.5,1,1,0.4854178000000502,Tanishka,001,2024-09-11_12h04.57.596,untitled,2024.1.5,None,2024-09-11 12h05.12.858963 +0530,
13,0.5,1.0,13.20646650000026,,13.190796500000033,13.20646650000026,13.706398199999967,13.706398199999967,13.706398199999967,14.006405200000245,14.157102600000144,right,1.0,1,1,0.44134740000026795,Tanishka,001,2024-09-11_12h04.57.596,untitled,2024.1.5,None,2024-09-11 12h05.12.858963 +0530,
14,0.5,1.0,14.173210899999958,,14.15716169999996,14.173210899999958,14.672971299999972,14.656161300000349,14.656161300000349,14.956180600000152,15.240617899999961,left,-1.0,1,1,0.5693446000000222,Tanishka,001,2024-09-11_12h04.57.596,untitled,2024.1.5,None,2024-09-11 12h05.12.858963 +0530,
15,0.5,1.0,15.256248099999993,,15.240673600000264,15.256248099999993,15.75631199999998,15.75631199999998,15.75631199999998,16.05602110000018,16.274279300000217,left,-1.0,1,1,0.5166819999999461,Tanishka,001,2024-09-11_12h04.57.596,untitled,2024.1.5,None,2024-09-11 12h05.12.858963 +0530,
16,0.5,1.0,16.289290800000344,,16.274338100000023,16.289290800000344,16.78938900000003,16.78938900000003,16.78938900000003,17.09010500000022,17.256860400000278,left,-1.0,1,1,0.4552063000000999,Tanishka,001,2024-09-11_12h04.57.596,untitled,2024.1.5,None,2024-09-11 12h05.12.858963 +0530,
17,0.5,1.0,17.272532200000114,,17.25691800000004,17.272532200000114,17.772612199999912,17.772612199999912,17.772612199999912,18.072621300000264,18.206650399999944,left,-1.0,0,0,0.4189875000001848,Tanishka,001,2024-09-11_12h04.57.596,untitled,2024.1.5,None,2024-09-11 12h05.12.858963 +0530,
18,0.5,1.5,18.222562800000105,,18.206709300000057,18.222562800000105,18.72337970000035,18.705733300000247,18.705733300000247,19.005850400000327,19.340167600000314,left,-1.5,1,1,0.6244673000001058,Tanishka,001,2024-09-11_12h04.57.596,untitled,2024.1.5,None,2024-09-11 12h05.12.858963 +0530,
19,0.5,1.5,19.35579510000025,,19.340223900000183,19.35579510000025,19.855769000000237,19.855769000000237,19.855769000000237,20.155616200000168,20.389917400000286,right,1.5,1,1,0.5256296999996266,Tanishka,001,2024-09-11_12h04.57.596,untitled,2024.1.5,None,2024-09-11 12h05.12.858963 +0530,
20,0.5,1.5,20.405472800000098,,20.389973499999996,20.405472800000098,20.905560900000182,20.888962600000013,20.888962600000013,21.188794200000302,21.406166100000064,left,-1.5,1,1,0.5060628999999608,Tanishka,001,2024-09-11_12h04.57.596,untitled,2024.1.5,None,2024-09-11 12h05.12.858963 +0530,
21,0.5,1.0,21.422317999999905,,21.406224300000304,21.422317999999905,21.92208430000028,21.90526399999999,21.90526399999999,22.20542350000005,22.339410699999917,right,1.0,0,0,0.4211414000001241,Tanishka,001,2024-09-11_12h04.57.596,untitled,2024.1.5,None,2024-09-11 12h05.12.858963 +0530,
22,0.5,1.5,22.355261800000335,,22.33947040000021,22.355261800000335,22.85542140000007,22.838850699999966,22.838850699999966,23.138450100000227,23.389484900000298,right,1.5,1,1,0.5344232000002194,Tanishka,001,2024-09-11_12h04.57.596,untitled,2024.1.5,None,2024-09-11 12h05.12.858963 +0530,
23,0.5,1.5,23.405133300000216,,23.38954130000002,23.405133300000216,23.90511860000015,23.90511860000015,23.90511860000015,24.205216600000313,24.523120400000153,left,-1.5,1,1,0.6168542999998863,Tanishka,001,2024-09-11_12h04.57.596,untitled,2024.1.5,None,2024-09-11 12h05.12.858963 +0530,
24,0.5,1.5,24.538512600000104,,24.523177699999906,24.538512600000104,25.038166100000126,25.038166100000126,25.038166100000126,25.338154300000042,25.822384800000236,left,-1.5,1,1,0.7706315999998878,Tanishka,001,2024-09-11_12h04.57.596,untitled,2024.1.5,None,2024-09-11 12h05.12.858963 +0530,
25,0.5,1.0,25.83824760000016,,25.82248400000026,25.83824760000016,26.33819459999995,26.33819459999995,26.33819459999995,26.63816470000029,26.805565099999967,right,1.0,1,1,0.45788179999999556,Tanishka,001,2024-09-11_12h04.57.596,untitled,2024.1.5,None,2024-09-11 12h05.12.858963 +0530,
26,0.5,1.0,26.821537400000125,,26.80562080000027,26.821537400000125,27.3212082,27.3212082,27.3212082,27.621478000000025,27.888735100000304,left,-1.0,1,1,0.55294559999993,Tanishka,001,2024-09-11_12h04.57.596,untitled,2024.1.5,None,2024-09-11 12h05.12.858963 +0530,
27,0.5,1.0,27.904684200000247,,27.888792300000205,27.904684200000247,28.404624199999944,28.387769700000263,28.387769700000263,28.687963800000034,28.98875709999993,right,1.0,1,1,0.5939277000002221,Tanishka,001,2024-09-11_12h04.57.596,untitled,2024.1.5,None,2024-09-11 12h05.12.858963 +0530,
28,0.5,1.0,29.004437699999926,,28.98881530000017,29.004437699999926,29.504475200000343,29.504475200000343,29.504475200000343,29.804497900000115,30.10509570000022,left,-1.0,1,1,0.5853217999997469,Tanishka,001,2024-09-11_12h04.57.596,untitled,2024.1.5,None,2024-09-11 12h05.12.858963 +0530,
29,0.5,1.0,30.120892899999944,,30.105152999999973,30.120892899999944,30.62102440000035,30.604182300000048,30.604182300000048,30.904408700000204,31.13854880000008,left,-1.0,1,1,0.5331031000000621,Tanishka,001,2024-09-11_12h04.57.596,untitled,2024.1.5,None,2024-09-11 12h05.12.858963 +0530,
30,0.5,1.0,31.154393900000287,,31.13860590000013,31.154393900000287,31.654187399999955,31.654187399999955,31.654187399999955,31.954075699999976,32.38821860000007,left,-1.0,1,1,0.7208760000003167,Tanishka,001,2024-09-11_12h04.57.596,untitled,2024.1.5,None,2024-09-11 12h05.12.858963 +0530,
31,0.5,1.0,32.403954200000044,,32.388276700000006,32.403954200000044,32.9040844000001,32.887398100000155,32.887398100000155,33.18746310000006,33.538100900000245,left,-1.0,1,1,0.6389654999998129,Tanishka,001,2024-09-11_12h04.57.596,untitled,2024.1.5,None,2024-09-11 12h05.12.858963 +0530,
32,0.5,1.0,33.55388470000025,,33.53815740000027,33.55388470000025,34.05375950000007,34.05375950000007,34.05375950000007,34.35369250000031,34.5884188,left,-1.0,0,0,0.5309159999997064,Tanishka,001,2024-09-11_12h04.57.596,untitled,2024.1.5,None,2024-09-11 12h05.12.858963 +0530,
33,0.5,1.5,34.60372929999994,,34.58848420000004,34.60372929999994,35.10360500000024,35.10360500000024,35.10360500000024,35.40365930000007,35.721524200000204,left,-1.5,1,1,0.6141004000000976,Tanishka,001,2024-09-11_12h04.57.596,untitled,2024.1.5,None,2024-09-11 12h05.12.858963 +0530,
34,0.5,1.5,35.7369133000002,,35.72158179999997,35.7369133000002,36.23695230000021,36.23695230000021,36.23695230000021,36.53711539999995,36.80425910000031,left,-1.5,0,0,0.561905200000183,Tanishka,001,2024-09-11_12h04.57.596,untitled,2024.1.5,None,2024-09-11 12h05.12.858963 +0530,
35,0.5,2.0,36.820287400000325,,36.804318400000284,36.820287400000325,37.320049400000244,37.303234599999996,37.303234599999996,37.60343980000016,37.92113090000021,left,-2.0,1,1,0.6095736000002034,Tanishka,001,2024-09-11_12h04.57.596,untitled,2024.1.5,None,2024-09-11 12h05.12.858963 +0530,
36,0.5,2.0,37.93669890000001,,37.92119330000014,37.93669890000001,38.43669550000004,38.43669550000004,38.43669550000004,38.736641899999995,39.00405670000009,right,2.0,1,1,0.5626687999997557,Tanishka,001,2024-09-11_12h04.57.596,untitled,2024.1.5,None,2024-09-11 12h05.12.858963 +0530,
37,0.5,2.0,39.020009500000015,,39.004111600000215,39.020009500000015,39.51977790000001,39.50310239999999,39.50310239999999,39.80271780000021,39.98738920000005,right,2.0,1,1,0.479510399999981,Tanishka,001,2024-09-11_12h04.57.596,untitled,2024.1.5,None,2024-09-11 12h05.12.858963 +0530,
38,0.5,1.5,40.0033784000002,,39.987448700000186,40.0033784000002,40.50323070000013,40.50323070000013,40.50323070000013,40.80292589999999,41.08709369999997,left,-1.5,1,1,0.5766004999995857,Tanishka,001,2024-09-11_12h04.57.596,untitled,2024.1.5,None,2024-09-11 12h05.12.858963 +0530,
39,0.5,1.5,41.102897700000085,,41.08715000000029,41.102897700000085,41.602914300000066,41.58614660000012,41.58614660000012,41.88613720000012,42.10362979999991,left,-1.5,1,1,0.505590299999767,Tanishka,001,2024-09-11_12h04.57.596,untitled,2024.1.5,None,2024-09-11 12h05.12.858963 +0530,
40,0.5,1.5,42.11953829999993,,42.10368640000024,42.11953829999993,42.61943130000009,42.60273219999999,42.60273219999999,42.90275670000028,43.120371200000136,right,1.5,1,1,0.5114401999999245,Tanishka,001,2024-09-11_12h04.57.596,untitled,2024.1.5,None,2024-09-11 12h05.12.858963 +0530,
41,0.5,1.0,43.1360724000001,,43.120428600000196,43.1360724000001,43.636720700000296,43.636720700000296,43.636720700000296,43.935814400000254,44.1203031,right,1.0,1,1,0.4738657000002604,Tanishka,001,2024-09-11_12h04.57.596,untitled,2024.1.5,None,2024-09-11 12h05.12.858963 +0530,
42,0.5,1.0,44.13585899999998,,44.12036020000005,44.13585899999998,44.635787600000185,44.61922850000019,44.61922850000019,44.919224900000245,45.15320700000029,right,1.0,1,1,0.5190958999996838,Tanishka,001,2024-09-11_12h04.57.596,untitled,2024.1.5,None,2024-09-11 12h05.12.858963 +0530,
43,0.5,1.0,45.169210999999905,,45.15326380000033,45.169210999999905,45.66901050000024,45.65237909999996,45.65237909999996,45.952244000000064,46.33668190000026,right,1.0,1,1,0.67947120000008,Tanishka,001,2024-09-11_12h04.57.596,untitled,2024.1.5,None,2024-09-11 12h05.12.858963 +0530,
44,0.5,1.0,46.35319019999997,,46.33673880000015,46.35319019999997,46.86878960000013,46.852149700000155,46.852149700000155,47.152200900000025,47.28637780000008,right,1.0,1,1,0.42658339999979944,Tanishka,001,2024-09-11_12h04.57.596,untitled,2024.1.5,None,2024-09-11 12h05.12.858963 +0530,
45,0.5,1.0,47.30203150000034,,47.28643349999993,47.30203150000034,47.801987499999996,47.801987499999996,47.801987499999996,48.101957200000015,48.4697056,left,-1.0,1,1,0.6636281999999483,Tanishka,001,2024-09-11_12h04.57.596,untitled,2024.1.5,None,2024-09-11 12h05.12.858963 +0530,
46,0.5,1.0,48.48544670000001,,48.46976360000008,48.48544670000001,48.98511929999995,48.98511929999995,48.98511929999995,49.28527699999995,49.46936360000018,right,1.0,0,0,0.4692433999998684,Tanishka,001,2024-09-11_12h04.57.596,untitled,2024.1.5,None,2024-09-11 12h05.12.858963 +0530,
47,0.5,1.5,49.485207100000025,,49.46942530000024,49.485207100000025,49.98505890000024,49.98505890000024,49.98505890000024,50.285046800000146,50.435898799999904,right,1.5,1,1,0.4409984999997505,Tanishka,001,2024-09-11_12h04.57.596,untitled,2024.1.5,None,2024-09-11 12h05.12.858963 +0530,
48,0.5,1.5,50.45165760000009,,50.43595529999993,50.45165760000009,50.95168580000018,50.9350929000002,50.9350929000002,51.23501280000028,51.3027532000001,right,1.5,1,1,0.3580053000000589,Tanishka,001,2024-09-11_12h04.57.596,untitled,2024.1.5,None,2024-09-11 12h05.12.858963 +0530,
49,0.5,1.5,51.318484700000226,,51.30281160000004,51.318484700000226,51.818209300000035,51.818209300000035,51.818209300000035,52.118322700000135,52.23590659999991,left,-1.5,0,0,0.41661740000017744,Tanishka,001,2024-09-11_12h04.57.596,untitled,2024.1.5,None,2024-09-11 12h05.12.858963 +0530,
50,0.5,2.0,52.251502399999936,,52.23596429999998,52.251502399999936,52.7514556000001,52.7514556000001,52.7514556000001,53.051329500000065,53.16901589999998,left,-2.0,1,1,0.40032769999970697,Tanishka,001,2024-09-11_12h04.57.596,untitled,2024.1.5,None,2024-09-11 12h05.12.858963 +0530,
51,0.5,2.0,53.18475380000018,,53.169073300000036,53.18475380000018,53.684657100000095,53.684657100000095,53.684657100000095,53.98469120000027,54.10212900000033,left,-2.0,1,1,0.40422450000005483,Tanishka,001,2024-09-11_12h04.57.596,untitled,2024.1.5,None,2024-09-11 12h05.12.858963 +0530,
52,0.5,2.0,54.11793990000024,,54.10218540000005,54.11793990000024,54.61779830000023,54.60134370000014,54.60134370000014,54.901224900000216,55.21933119999994,left,-2.0,1,1,0.6150054999998247,Tanishka,001,2024-09-11_12h04.57.596,untitled,2024.1.5,None,2024-09-11 12h05.12.858963 +0530,
53,0.5,1.5,55.23432630000025,,55.21939049999992,55.23432630000025,55.73464330000024,55.73464330000024,55.73464330000024,56.034260899999936,56.3186453000003,right,1.5,1,1,0.5746752999998535,Tanishka,001,2024-09-11_12h04.57.596,untitled,2024.1.5,None,2024-09-11 12h05.12.858963 +0530,
54,0.5,1.5,56.334387300000344,,56.31870200000003,56.334387300000344,56.83429960000012,56.83429960000012,56.83429960000012,57.13412030000018,57.53494860000001,left,-1.5,1,1,0.6987885999997161,Tanishka,001,2024-09-11_12h04.57.596,untitled,2024.1.5,None,2024-09-11 12h05.12.858963 +0530,
55,0.5,1.5,57.55070400000022,,57.53501700000015,57.55070400000022,58.05080300000009,58.033958800000164,58.033958800000164,58.334002600000076,58.585015099999964,left,-1.5,1,1,0.5498732999999447,Tanishka,001,2024-09-11_12h04.57.596,untitled,2024.1.5,None,2024-09-11 12h05.12.858963 +0530,
56,0.5,1.0,58.60072440000022,,58.58507240000017,58.60072440000022,59.100652699999955,59.08402019999994,59.08402019999994,59.383980500000234,59.63480269999991,right,1.0,1,1,0.5376722000000882,Tanishka,001,2024-09-11_12h04.57.596,untitled,2024.1.5,None,2024-09-11 12h05.12.858963 +0530,
57,0.5,1.0,59.65068280000014,,59.634859400000096,59.65068280000014,60.150532999999996,60.133799700000054,60.133799700000054,60.4338987000001,60.58448870000029,right,1.0,1,1,0.4346261000000595,Tanishka,001,2024-09-11_12h04.57.596,untitled,2024.1.5,None,2024-09-11 12h05.12.858963 +0530,
58,0.5,1.0,60.60045160000027,,60.58454490000031,60.60045160000027,61.100428900000225,61.083886299999904,61.083886299999904,61.38362690000031,61.668074700000034,left,-1.0,1,1,0.582429200000206,Tanishka,001,2024-09-11_12h04.57.596,untitled,2024.1.5,None,2024-09-11 12h05.12.858963 +0530,
59,0.5,1.0,61.68363750000026,,61.66813420000017,61.68363750000026,62.18348190000006,62.18348190000006,62.18348190000006,62.48347340000009,62.717734500000006,right,1.0,1,1,0.5203214999996817,Tanishka,001,2024-09-11_12h04.57.596,untitled,2024.1.5,None,2024-09-11 12h05.12.858963 +0530,
60,0.5,1.0,62.73348470000019,,62.717791000000034,62.73348470000019,63.23345890000019,63.216851900000165,63.216851900000165,63.51683159999993,63.78409760000022,left,-1.0,1,1,0.5609386999999515,Tanishka,001,2024-09-11_12h04.57.596,untitled,2024.1.5,None,2024-09-11 12h05.12.858963 +0530,
61,0.5,1.0,63.79997150000008,,63.78415369999993,63.79997150000008,64.29994990000023,64.28317520000019,64.28317520000019,64.58324020000009,64.78419290000011,right,1.0,0,0,0.485577800000101,Tanishka,001,2024-09-11_12h04.57.596,untitled,2024.1.5,None,2024-09-11 12h05.12.858963 +0530,
62,0.5,1.5,64.79994269999997,,64.7842528000001,64.79994269999997,65.29987290000008,65.29987290000008,65.29987290000008,65.59994860000006,65.86727800000017,left,-1.5,1,1,0.551884500000142,Tanishka,001,2024-09-11_12h04.57.596,untitled,2024.1.5,None,2024-09-11 12h05.12.858963 +0530,
63,0.5,1.5,65.88319279999996,,65.8673345000002,65.88319279999996,66.38310260000026,66.38310260000026,66.38310260000026,66.68316069999992,66.75015030000031,right,1.5,1,1,0.3605097999998179,Tanishka,001,2024-09-11_12h04.57.596,untitled,2024.1.5,None,2024-09-11 12h05.12.858963 +0530,
64,0.5,1.5,66.76651870000023,,66.75020480000012,66.76651870000023,67.26632090000021,67.24971249999999,67.24971249999999,67.54969550000033,67.76698600000009,left,-1.5,1,1,0.5012053999998898,Tanishka,001,2024-09-11_12h04.57.596,untitled,2024.1.5,None,2024-09-11 12h05.12.858963 +0530,
65,0.5,1.0,67.78279550000025,,67.76704689999997,67.78279550000025,68.28295359999993,68.26620870000033,68.26620870000033,68.5661454000001,68.73398040000029,right,1.0,1,1,0.46197040000015477,Tanishka,001,2024-09-11_12h04.57.596,untitled,2024.1.5,None,2024-09-11 12h05.12.858963 +0530,
66,0.5,1.0,68.74952040000016,,68.73404000000028,68.74952040000016,69.24946480000017,69.24946480000017,69.24946480000017,69.55009220000011,69.81711780000023,left,-1.0,1,1,0.5657329999999092,Tanishka,001,2024-09-11_12h04.57.596,untitled,2024.1.5,None,2024-09-11 12h05.12.858963 +0530,
67,0.5,1.0,69.83259709999993,,69.81718660000024,69.83259709999993,70.33242930000006,70.33242930000006,70.33242930000006,70.6324125000001,70.71679680000034,right,1.0,1,1,0.3693391000001611,Tanishka,001,2024-09-11_12h04.57.596,untitled,2024.1.5,None,2024-09-11 12h05.12.858963 +0530,
68,0.5,1.0,70.7324993000002,,70.71685539999999,70.7324993000002,71.23249940000005,71.23249940000005,71.23249940000005,71.53228720000016,71.71649040000011,left,-1.0,1,1,0.4763205000003836,Tanishka,001,2024-09-11_12h04.57.596,untitled,2024.1.5,None,2024-09-11 12h05.12.858963 +0530,
69,0.5,1.0,71.73244100000011,,71.71654750000016,71.73244100000011,72.23231250000026,72.21558410000034,72.21558410000034,72.51554110000006,72.74984440000026,right,1.0,1,1,0.5171822000002066,Tanishka,001,2024-09-11_12h04.57.596,untitled,2024.1.5,None,2024-09-11 12h05.12.858963 +0530,
70,0.5,1.0,72.76554880000003,,72.74990180000032,72.76554880000003,73.26539180000009,73.24913349999997,73.24913349999997,73.54894749999994,73.73315120000007,right,1.0,0,0,0.4804887000000235,Tanishka,001,2024-09-11_12h04.57.596,untitled,2024.1.5,None,2024-09-11 12h05.12.858963 +0530,
71,0.5,1.5,73.74871980000034,,73.73321040000019,73.74871980000034,74.2486173000002,74.2486173000002,74.2486173000002,74.54856000000018,74.81631319999997,left,-1.5,1,1,0.5590170000000398,Tanishka,001,2024-09-11_12h04.57.596,untitled,2024.1.5,None,2024-09-11 12h05.12.858963 +0530,
72,0.5,1.5,74.8320977000003,,74.81637150000006,74.8320977000003,75.33191450000004,75.33191450000004,75.33191450000004,75.63182129999996,75.86620459999995,left,-1.5,1,1,0.5313734000001205,Tanishka,001,2024-09-11_12h04.57.596,untitled,2024.1.5,None,2024-09-11 12h05.12.858963 +0530,
73,0.5,1.5,75.88193360000014,,75.86626280000019,75.88193360000014,76.38183490000029,76.38183490000029,76.38183490000029,76.68176390000008,76.86593360000006,right,1.5,1,1,0.46926110000003973,Tanishka,001,2024-09-11_12h04.57.596,untitled,2024.1.5,None,2024-09-11 12h05.12.858963 +0530,
74,0.5,1.0,76.88164360000019,,76.865992,76.88164360000019,77.3815267,77.36509010000009,77.36509010000009,77.66505880000022,77.8490799000001,right,1.0,1,1,0.46969599999965794,Tanishka,001,2024-09-11_12h04.57.596,untitled,2024.1.5,None,2024-09-11 12h05.12.858963 +0530,
75,0.5,1.0,77.86485990000028,,77.84913649999999,77.86485990000028,78.36488120000013,78.3482213000002,78.3482213000002,78.64808570000014,78.96549510000023,left,-1.0,1,1,0.6023691999998846,Tanishka,001,2024-09-11_12h04.57.596,untitled,2024.1.5,None,2024-09-11 12h05.12.858963 +0530,
76,0.5,1.0,78.98167660000036,,78.96555269999999,78.98167660000036,79.4814778,79.46462440000005,79.46462440000005,79.76458240000011,80.04896469999994,right,1.0,1,1,0.5782353999998122,Tanishka,001,2024-09-11_12h04.57.596,untitled,2024.1.5,None,2024-09-11 12h05.12.858963 +0530,
77,0.5,1.0,80.06472010000016,,80.04902410000022,80.06472010000016,80.56459820000009,80.54788469999994,80.54788469999994,80.8478841000001,81.14888450000035,right,1.0,1,1,0.5991871999999603,Tanishka,001,2024-09-11_12h04.57.596,untitled,2024.1.5,None,2024-09-11 12h05.12.858963 +0530,
78,0.5,1.0,81.16442450000022,,81.14894210000011,81.16442450000022,81.66547870000022,81.66547870000022,81.66547870000022,81.98097940000025,82.11556360000031,right,1.0,1,1,0.44784240000035425,Tanishka,001,2024-09-11_12h04.57.596,untitled,2024.1.5,None,2024-09-11 12h05.12.858963 +0530,
79,0.5,1.0,82.13109940000004,,82.11562099999992,82.13109940000004,82.63081850000026,82.63081850000026,82.63081850000026,82.93103180000026,83.08211789999996,left,-1.0,0,0,0.4497076999996352,Tanishka,001,2024-09-11_12h04.57.596,untitled,2024.1.5,None,2024-09-11 12h05.12.858963 +0530,
80,0.5,1.5,83.0976482000001,,83.08217490000015,83.0976482000001,83.59758280000005,83.59758280000005,83.59758280000005,83.89748860000009,84.0315800000003,left,-1.5,1,1,0.4261261999999988,Tanishka,001,2024-09-11_12h04.57.596,untitled,2024.1.5,None,2024-09-11 12h05.12.858963 +0530,
81,0.5,1.5,84.04744440000013,,84.03163710000035,84.04744440000013,84.5473465,84.53077940000003,84.53077940000003,84.83067120000032,85.0653499,right,1.5,1,1,0.5335276000000704,Tanishka,001,2024-09-11_12h04.57.596,untitled,2024.1.5,None,2024-09-11 12h05.12.858963 +0530,
82,0.5,1.5,85.08065699999997,,85.06540670000004,85.08065699999997,85.58075830000007,85.58075830000007,85.58075830000007,85.88042840000026,86.03143530000034,right,1.5,1,1,0.4405655000000479,Tanishka,001,2024-09-11_12h04.57.596,untitled,2024.1.5,None,2024-09-11 12h05.12.858963 +0530,
83,0.5,1.0,86.04713500000025,,86.03149490000033,86.04713500000025,86.54709920000005,86.53041060000032,86.53041060000032,86.83053100000006,87.19827450000003,right,1.0,0,0,0.6545810000002348,Tanishka,001,2024-09-11_12h04.57.596,untitled,2024.1.5,None,2024-09-11 12h05.12.858963 +0530,
84,0.5,1.5,87.21465590000025,,87.1983352000002,87.21465590000025,87.7136289,87.7136289,87.7136289,88.01330760000019,88.4145982,right,1.5,1,1,0.6998232999999345,Tanishka,001,2024-09-11_12h04.57.596,untitled,2024.1.5,None,2024-09-11 12h05.12.858963 +0530,
85,0.5,1.5,88.43015520000017,,88.41465430000017,88.43015520000017,88.93013280000014,88.93013280000014,88.93013280000014,89.23019620000014,89.4644773,right,1.5,0,0,0.5295525999999882,Tanishka,001,2024-09-11_12h04.57.596,untitled,2024.1.5,None,2024-09-11 12h05.12.858963 +0530,
86,0.5,2.0,89.48011590000033,,89.4645373000003,89.48011590000033,89.9811393,89.9811393,89.9811393,90.2966948000003,90.44764080000004,left,-2.0,1,1,0.4607419999997546,Tanishka,001,2024-09-11_12h04.57.596,untitled,2024.1.5,None,2024-09-11 12h05.12.858963 +0530,
87,0.5,2.0,90.46343300000035,,90.4476966000002,90.46343300000035,90.96308020000015,90.96308020000015,90.96308020000015,91.2632509,91.41417150000007,left,-2.0,1,1,0.4413297999999486,Tanishka,001,2024-09-11_12h04.57.596,untitled,2024.1.5,None,2024-09-11 12h05.12.858963 +0530,
88,0.5,2.0,91.42978059999996,,91.41422850000026,91.42978059999996,91.92978859999994,91.92978859999994,91.92978859999994,92.22977390000005,92.44715990000032,right,2.0,0,0,0.5159084000001712,Tanishka,001,2024-09-11_12h04.57.596,untitled,2024.1.5,None,2024-09-11 12h05.12.858963 +0530,
89,0.5,2.5,92.4630661000001,,92.44722189999993,92.4630661000001,92.96306069999991,92.94615720000002,92.94615720000002,93.24632909999991,93.46406680000018,left,-2.5,1,1,0.5087125000000015,Tanishka,001,2024-09-11_12h04.57.596,untitled,2024.1.5,None,2024-09-11 12h05.12.858963 +0530,
90,0.5,2.5,93.47957990000032,,93.46412200000032,93.47957990000032,93.97966580000002,93.97966580000002,93.97966580000002,94.27956140000015,94.47991420000017,right,2.5,0,0,0.49570959999982733,Tanishka,001,2024-09-11_12h04.57.596,untitled,2024.1.5,None,2024-09-11 12h05.12.858963 +0530,
91,0.5,3.0,94.49606970000013,,94.47997520000035,94.49606970000013,94.99628930000017,94.97949640000024,94.97949640000024,95.27931590000026,95.5800621000003,right,3.0,0,0,0.5889130000000478,Tanishka,001,2024-09-11_12h04.57.596,untitled,2024.1.5,None,2024-09-11 12h05.12.858963 +0530,
92,0.5,3.5,95.59557940000013,,95.58012210000015,95.59557940000013,96.0959828,96.07942030000004,96.07942030000004,96.37909370000034,96.96338430000014,right,3.5,0,0,0.8765442999997504,Tanishka,001,2024-09-11_12h04.57.596,untitled,2024.1.5,None,2024-09-11 12h05.12.858963 +0530,
93,0.5,4.0,96.9791024000001,,96.96344279999994,96.9791024000001,97.47904400000016,97.46223330000021,97.46223330000021,97.76214759999993,98.19650100000035,left,-4.0,1,1,0.7226077000000259,Tanishka,001,2024-09-11_12h04.57.596,untitled,2024.1.5,None,2024-09-11 12h05.12.858963 +0530,
94,0.5,4.0,98.21224470000016,,98.1965567000002,98.21224470000016,98.71223039999995,98.69547640000019,98.69547640000019,98.99565440000015,99.21296800000027,left,-4.0,1,1,0.5057621999999355,Tanishka,001,2024-09-11_12h04.57.596,untitled,2024.1.5,None,2024-09-11 12h05.12.858963 +0530,
95,0.5,4.0,99.22888430000012,,99.21302540000033,99.22888430000012,99.72868130000006,99.71214520000012,99.71214520000012,100.01217100000031,100.27985459999991,left,-4.0,1,1,0.5665242000000035,Tanishka,001,2024-09-11_12h04.57.596,untitled,2024.1.5,None,2024-09-11 12h05.12.858963 +0530,
96,0.5,3.5,100.29524740000033,,100.27991320000001,100.29524740000033,100.79535430000033,100.79535430000033,100.79535430000033,101.09558730000026,101.36287440000024,right,3.5,1,1,0.5557542000001376,Tanishka,001,2024-09-11_12h04.57.596,untitled,2024.1.5,None,2024-09-11 12h05.12.858963 +0530,
97,0.5,3.5,101.37844949999999,,101.36293240000032,101.37844949999999,101.87852980000025,101.87852980000025,101.87852980000025,102.17845690000013,102.47937490000004,left,-3.5,1,1,0.5855406000000585,Tanishka,001,2024-09-11_12h04.57.596,untitled,2024.1.5,None,2024-09-11 12h05.12.858963 +0530,
98,0.5,3.5,102.49516070000027,,102.47943190000024,102.49516070000027,102.99503270000014,102.99503270000014,102.99503270000014,103.29493070000035,103.46245590000035,left,-3.5,1,1,0.4619580000003225,Tanishka,001,2024-09-11_12h04.57.596,untitled,2024.1.5,None,2024-09-11 12h05.12.858963 +0530,
99,0.5,3.0,103.47878680000031,,103.46251329999996,103.47878680000031,103.9781825,103.96168949999992,103.96168949999992,104.26155910000034,104.46251620000021,right,3.0,1,1,0.48651680000011766,Tanishka,001,2024-09-11_12h04.57.596,untitled,2024.1.5,None,2024-09-11 12h05.12.858963 +0530,
